I [mA]	0.100000
H [kOe]	20.081000
Time [s]	V_xx [mV]	V_xy [mV]
0.00000	1150.88000	0.03100
0.28002	1149.08000	0.03000
0.55103	1147.20000	0.03100
1.03406	1143.45000	0.02900
1.30107	1143.73000	0.03100
1.58109	1144.46000	0.02700
1.86111	1145.21000	0.03200
2.14112	1143.65000	0.03000
2.42114	1142.07000	0.02800
2.70115	1141.62000	0.03000
2.98117	1142.07000	0.03000
3.26119	1142.71000	0.02600
3.54120	1143.15000	0.02600
3.82122	1143.45000	0.02800
4.10124	1143.56000	0.02600
4.38125	1143.51000	0.02700
4.66127	1143.54000	0.02500
4.94128	1143.55000	0.03000
5.22130	1143.48000	0.02600
5.50132	1143.52000	0.02500
5.78033	1142.86000	0.02500
6.05135	1143.03000	0.02700
6.32136	1143.29000	0.02600
6.60138	1143.25000	0.02500
6.88139	1143.17000	0.02500
7.16041	1142.30000	0.02500
7.43143	1142.63000	0.02500
7.70044	1142.31000	0.02600
7.97146	1142.75000	0.02200
8.24147	1143.10000	0.02400
8.52149	1143.31000	0.02500
8.80050	1142.71000	0.02700
9.08052	1142.90000	0.02100
9.36054	1143.11000	0.02100
9.64055	1143.42000	0.02200
9.92057	1143.48000	0.02300
10.20058	1143.60000	0.02300
10.48060	1143.75000	0.02400
10.76062	1143.81000	0.02200
11.04063	1143.85000	0.02200
11.32065	1144.03000	0.02100
11.60066	1144.23000	0.02500
11.88068	1144.20000	0.02100
12.16070	1144.04000	0.02300
12.44071	1143.95000	0.02000
12.72073	1143.88000	0.02000
13.00074	1143.94000	0.02100
13.28076	1143.96000	0.02400
13.56078	1143.94000	0.01900
13.84079	1143.94000	0.01900
14.12081	1143.96000	0.01800
14.40082	1143.93000	0.01500
14.68084	1143.93000	0.02100
14.96086	1143.95000	0.01800
15.24087	1143.90000	0.01700
15.52089	1144.05000	0.01900
15.80090	1144.04000	0.01800
16.08092	1144.02000	0.01500
16.36094	1144.02000	0.01900
16.64095	1144.17000	0.01600
16.92097	1144.25000	0.01500
17.20098	1144.28000	0.01600
17.48100	1144.18000	0.01200
17.76102	1143.97000	0.01800
18.04103	1143.98000	0.01800
18.32105	1143.91000	0.01900
18.60106	1144.05000	0.01600
18.88108	1144.15000	0.01700
19.16010	1144.20000	0.01700
19.43111	1144.38000	0.01700
19.70113	1144.57000	0.01400
19.98114	1144.58000	0.01600
20.26116	1144.76000	0.01200
20.54118	1144.81000	0.01100
20.82119	1144.90000	0.01500
21.10021	1144.43000	0.01300
21.37122	1144.92000	0.01200
21.64024	1144.30000	0.01400
21.91125	1144.69000	0.00800
22.18127	1144.96000	0.01400
22.46028	1144.39000	0.00900
22.73130	1144.98000	0.01200
23.00132	1145.35000	0.01200
23.28133	1145.55000	0.01400
23.56035	1144.75000	0.01200
23.84136	1144.98000	0.01100
24.12138	1145.30000	0.00900
24.40040	1145.61000	0.01100
24.68041	1145.77000	0.00900
24.96043	1145.91000	0.01100
25.24044	1146.07000	0.01000
25.52046	1146.12000	0.00800
25.80048	1146.26000	0.01100
26.08049	1146.20000	0.00900
26.36051	1146.17000	0.00700
26.64052	1146.06000	0.01200
26.92054	1146.14000	0.00800
27.20056	1146.34000	0.01000
27.48057	1146.52000	0.01000
27.76059	1146.64000	0.00900
28.04060	1146.68000	0.01000
28.32062	1146.83000	0.00900
28.60064	1146.98000	0.00600
28.88065	1147.34000	0.00600
29.16067	1147.46000	0.00600
29.44068	1147.74000	0.00800
29.72070	1147.86000	0.00700
30.00072	1147.80000	0.01000
30.28073	1147.91000	0.00400
30.56075	1147.98000	0.00300
30.84076	1148.05000	0.00400
31.12078	1148.04000	0.00700
31.40080	1147.97000	0.00800
31.68081	1147.94000	0.00400
31.96083	1147.97000	0.00600
32.24084	1147.73000	0.00200
32.52086	1147.66000	0.00600
32.80088	1147.53000	0.00500
33.08089	1147.37000	0.00600
33.36091	1147.27000	0.00800
33.64092	1147.21000	0.00400
33.92094	1147.06000	0.00400
34.20096	1146.96000	0.00200
34.48097	1146.93000	0.00500
34.76099	1146.94000	0.00200
35.04100	1147.03000	0.00200
35.32102	1147.09000	0.00300
35.60104	1147.07000	0.00300
35.88105	1146.97000	0.00300
36.16107	1146.84000	0.00200
36.44108	1146.59000	0.00400
36.72110	1146.30000	0.00500
37.00112	1146.27000	0.00200
37.28113	1146.02000	0.00200
37.56115	1145.97000	0.00300
37.84116	1145.79000	-0.00100
38.12018	1145.55000	0.00200
38.40020	1145.31000	0.00000
38.68021	1145.15000	0.00100
38.96023	1144.91000	0.00200
39.24024	1144.69000	0.00000
39.52026	1144.34000	0.00100
39.80028	1144.03000	0.00000
40.08029	1143.92000	0.00000
40.36031	1143.96000	0.00000
40.64032	1143.68000	0.00200
40.92034	1143.53000	0.00200
41.20036	1143.15000	-0.00100
41.48037	1143.01000	0.00200
41.76039	1142.82000	-0.00300
42.04040	1142.58000	0.00100
42.32042	1142.45000	0.00100
42.60044	1142.24000	-0.00100
42.88045	1141.93000	-0.00200
43.16047	1141.76000	0.00000
43.44049	1141.63000	-0.00100
43.72050	1141.52000	-0.00100
44.00052	1141.55000	-0.00100
44.28053	1141.55000	0.00100
44.56055	1141.79000	-0.00300
44.84056	1141.98000	0.00100
45.12058	1142.07000	-0.00200
45.40060	1142.09000	-0.00200
45.68061	1142.24000	0.00000
45.96063	1142.28000	-0.00300
46.24064	1142.41000	0.00100
46.52066	1142.51000	-0.00500
46.80068	1142.55000	-0.00400
47.08069	1142.87000	0.00000
47.36071	1143.09000	-0.00100
47.64073	1143.37000	0.00000
47.92074	1143.44000	-0.00100
48.20076	1143.61000	-0.00500
48.48077	1143.68000	-0.00500
48.76079	1143.95000	-0.00400
49.04081	1144.10000	-0.00400
49.32082	1144.07000	-0.00400
49.60084	1144.21000	-0.00500
49.87985	1144.31000	-0.00300
50.15087	1144.40000	0.00000
50.42088	1144.58000	-0.00500
50.70090	1144.84000	-0.00200
50.98092	1144.96000	-0.00300
51.26093	1145.08000	-0.00600
51.54095	1145.20000	-0.00300
51.81996	1144.63000	-0.00400
52.09998	1144.79000	-0.00500
52.38000	1144.98000	-0.00300
52.66001	1145.11000	-0.00200
52.94003	1145.38000	-0.00400
53.22004	1145.57000	-0.00400
53.50006	1145.65000	-0.00400
53.78008	1145.72000	-0.00500
54.06009	1145.75000	-0.00300
54.34011	1145.98000	-0.00700
54.62012	1145.84000	-0.00600
54.90014	1145.74000	-0.00600
55.18016	1145.64000	-0.00500
55.46017	1145.55000	-0.00400
55.74019	1145.67000	-0.00700
56.02021	1145.73000	-0.00700
56.30022	1145.83000	-0.00600
56.58024	1145.69000	-0.00600
56.86025	1145.68000	-0.00700
57.14027	1145.94000	-0.00600
57.42028	1146.08000	-0.00700
57.70030	1146.35000	-0.00600
57.98032	1146.46000	-0.00900
58.26033	1146.68000	-0.00700
58.54035	1146.81000	-0.00600
58.82036	1146.89000	-0.00600
59.10038	1146.92000	-0.00500
59.38040	1147.03000	-0.00700
59.66041	1147.00000	-0.00900
59.94043	1146.86000	-0.01000
60.22044	1146.81000	-0.00900
60.50046	1146.82000	-0.00500
60.78048	1146.89000	-0.00700
61.06049	1147.06000	-0.00800
61.34051	1147.19000	-0.00700
61.62052	1147.29000	-0.00900
61.90054	1147.19000	-0.00900
62.18056	1147.24000	-0.00800
62.46057	1147.32000	-0.00700
62.74059	1147.40000	-0.00700
63.02060	1147.56000	-0.00900
63.29962	1147.59000	-0.01000
63.57064	1147.82000	-0.00600
63.84065	1147.80000	-0.00900
64.12067	1147.80000	-0.00800
64.40068	1147.93000	-0.00500
64.68070	1148.04000	-0.00700
64.96072	1148.04000	-0.00700
65.24073	1148.09000	-0.00800
65.52075	1148.20000	-0.00600
65.79976	1147.43000	-0.00900
66.07978	1147.68000	-0.00700
66.35980	1147.99000	-0.01100
66.63981	1148.08000	-0.01100
66.91983	1148.14000	-0.01300
67.19984	1148.23000	-0.00700
67.47986	1148.29000	-0.01100
67.75988	1148.44000	-0.00800
68.03989	1148.45000	-0.00800
68.31991	1148.26000	-0.00700
68.59992	1147.93000	-0.01000
68.87994	1147.50000	-0.00800
69.15996	1147.13000	-0.00900
69.43997	1146.93000	-0.01000
69.71999	1147.11000	-0.01100
70.00000	1146.60000	-0.01100
70.28002	1146.31000	-0.01300
70.56004	1148.02000	-0.00900
70.84005	1147.18000	-0.00700
71.12007	1146.87000	-0.01100
71.40008	1146.49000	-0.01000
71.68010	1146.05000	-0.01100
71.96012	1145.87000	-0.01000
72.24013	1145.76000	-0.01000
72.52015	1145.68000	-0.01000
72.80016	1145.61000	-0.01100
73.08018	1145.64000	-0.00700
73.36020	1145.41000	-0.00900
73.64021	1145.31000	-0.00900
73.92023	1145.13000	-0.01000
74.20024	1144.97000	-0.01500
74.48026	1144.73000	-0.00700
74.76028	1144.49000	-0.01300
75.04029	1144.48000	-0.00700
75.32031	1144.36000	-0.01200
75.60032	1144.29000	-0.01100
75.88034	1144.30000	-0.01300
76.16036	1144.25000	-0.01000
76.44037	1144.18000	-0.00900
76.72039	1144.09000	-0.01000
77.00040	1144.05000	-0.00900
77.28042	1143.87000	-0.00900
77.56044	1143.48000	-0.00600
77.84045	1143.17000	-0.01300
78.11947	1143.00000	-0.01200
78.40048	1142.85000	-0.00800
78.68050	1142.80000	-0.01000
78.95952	1142.85000	-0.01100
79.23953	1142.66000	-0.00800
79.51955	1142.56000	-0.01200
79.79956	1142.55000	-0.01000
80.07958	1142.52000	-0.00800
80.35960	1142.29000	-0.01100
80.63961	1142.07000	-0.01200
80.91963	1142.02000	-0.01000
81.19964	1142.06000	-0.01200
81.47966	1142.11000	-0.00900
81.75968	1142.03000	-0.00900
82.03969	1142.07000	-0.00800
82.31971	1142.18000	-0.01100
82.59972	1142.36000	-0.00800
82.87974	1142.55000	-0.01000
83.15976	1142.83000	-0.00900
83.43977	1143.12000	-0.00800
83.71979	1143.31000	-0.00900
83.99980	1143.28000	-0.01300
84.27982	1143.39000	-0.00700
84.55984	1143.45000	-0.01000
84.83985	1143.39000	-0.01100
85.11987	1143.34000	-0.01000
85.39988	1143.20000	-0.01100
85.67990	1143.19000	-0.00900
85.95992	1143.25000	-0.01200
86.23993	1143.62000	-0.00900
86.51995	1143.78000	-0.00900
86.79996	1144.13000	-0.00900
87.07998	1144.26000	-0.00800
87.36000	1144.34000	-0.01000
87.64001	1144.43000	-0.01100
87.92003	1144.49000	-0.00600
88.20004	1144.80000	-0.00800
88.48006	1144.82000	-0.01100
88.76008	1144.98000	-0.01100
89.04009	1144.99000	-0.00500
89.32011	1145.12000	-0.00900
89.60012	1145.30000	-0.01000
89.88014	1145.41000	-0.01000
90.16016	1145.55000	-0.00900
90.44017	1145.69000	-0.00900
90.72019	1145.75000	-0.01100
90.99920	1145.63000	-0.00900
91.27022	1145.65000	-0.01200
91.53924	1144.93000	-0.00900
91.81025	1145.27000	-0.00900
92.08027	1145.57000	-0.00600
92.36028	1145.72000	-0.01100
92.63930	1145.27000	-0.00900
92.91932	1145.47000	-0.01000
93.19933	1145.64000	-0.00800
93.47935	1145.78000	-0.00900
93.75936	1146.24000	-0.00600
94.03938	1146.42000	-0.00800
94.31940	1146.61000	-0.00400
94.59941	1146.73000	-0.00600
94.87943	1146.76000	-0.00700
95.15944	1146.70000	-0.00900
95.43946	1146.62000	-0.00700
95.71948	1146.53000	-0.00800
95.99949	1146.61000	-0.00700
96.27951	1146.66000	-0.01000
96.55952	1146.79000	-0.00600
96.83954	1146.97000	-0.00600
97.11955	1147.18000	-0.00600
97.39957	1147.30000	-0.00700
97.67959	1147.21000	-0.00800
97.95960	1147.33000	-0.00800
98.23962	1147.43000	-0.00800
98.51964	1147.55000	-0.00700
98.79965	1147.67000	-0.00900
99.07967	1147.68000	-0.00600
99.35968	1147.66000	-0.00700
99.63970	1147.63000	-0.00900
99.91972	1147.68000	-0.00500
100.19973	1147.57000	-0.00600
100.47975	1147.57000	-0.00600
100.75976	1147.75000	-0.00800
101.03978	1147.66000	-0.00400
101.31980	1147.51000	-0.00400
101.59981	1147.59000	-0.00800
101.87983	1147.63000	-0.00400
102.15984	1147.58000	-0.00500
102.43986	1147.70000	-0.00600
102.71988	1147.66000	-0.00600
102.99989	1147.74000	-0.00500
103.27991	1147.81000	-0.00500
103.55992	1147.84000	-0.00500
103.83994	1147.89000	-0.00600
104.11996	1147.98000	-0.00800
104.39997	1148.08000	-0.00400
104.67899	1148.00000	-0.00300
104.96000	1147.55000	-0.00600
105.22102	1147.46000	-0.00400
105.50003	1147.37000	-0.00400
105.78005	1147.40000	-0.00200
106.06007	1147.40000	-0.00500
106.33908	1146.45000	-0.00400
106.61910	1146.51000	-0.00200
106.89911	1146.43000	-0.00700
107.17913	1146.55000	-0.00100
107.45915	1146.60000	-0.00300
107.73916	1146.63000	-0.00400
108.01918	1146.52000	-0.00300
108.29919	1146.46000	-0.00200
108.57921	1146.50000	0.00100
108.85923	1146.46000	-0.00200
109.13924	1146.41000	0.00200
109.41926	1146.40000	-0.00100
109.69927	1146.34000	-0.00200
109.97929	1146.08000	-0.00400
110.25931	1146.00000	-0.00500
110.53932	1146.00000	-0.00400
110.81934	1145.94000	-0.00500
111.09935	1145.86000	-0.00400
111.37937	1145.47000	-0.00500
111.65939	1145.04000	0.00200
111.93940	1144.62000	-0.00300
112.21942	1144.30000	0.00000
112.49943	1144.13000	-0.00200
112.77945	1143.89000	0.00100
113.05947	1143.70000	-0.00100
113.33948	1143.61000	-0.00200
113.61950	1143.59000	-0.00300
113.89952	1143.53000	0.00000
114.17953	1143.38000	-0.00100
114.45955	1143.22000	-0.00100
114.73956	1143.00000	-0.00100
115.01958	1142.95000	-0.00100
115.29960	1142.74000	0.00200
115.57961	1142.60000	-0.00500
115.85963	1142.71000	-0.00300
116.13864	1142.75000	0.00000
116.40066	1142.78000	0.00000
116.67967	1142.76000	-0.00100
116.95969	1142.86000	0.00000
117.23971	1143.05000	0.00200
117.51972	1143.13000	0.00200
117.79874	1142.49000	0.00200
118.06075	1142.75000	0.00000
118.33977	1143.01000	0.00100
118.61978	1143.32000	0.00200
118.89880	1143.15000	0.00000
119.16082	1143.73000	0.00000
119.43983	1144.28000	0.00300
119.71885	1144.18000	0.00000
119.99886	1144.55000	0.00100
120.27988	1144.90000	0.00300
120.55990	1145.18000	0.00100
120.83891	1145.30000	0.00300
121.11993	1145.63000	0.00000
121.39994	1145.80000	0.00400
121.67896	1145.85000	0.00400
121.95898	1145.91000	0.00500
122.23899	1145.97000	0.00200
122.51901	1146.10000	0.00200
122.79902	1146.06000	0.00000
123.07904	1146.01000	0.00200
123.35906	1145.97000	0.00400
123.63907	1146.07000	0.00300
123.91909	1146.22000	0.00000
124.19910	1146.59000	0.00200
124.47912	1146.86000	0.00500
124.75914	1147.16000	0.00200
125.03915	1147.29000	0.00500
125.31917	1147.15000	0.00300
125.59818	1147.26000	0.00400
125.86120	1147.35000	0.00200
126.13921	1146.84000	0.00400
126.41923	1147.12000	0.00700
126.69925	1147.30000	0.00800
126.97926	1147.35000	0.00600
127.25928	1147.44000	0.00800
127.53930	1147.45000	0.00600
127.81931	1147.27000	0.00300
128.09933	1147.19000	0.00400
128.37934	1147.27000	0.00700
128.65936	1147.25000	0.00900
128.93938	1147.22000	0.00500
129.21939	1147.40000	0.00700
129.49941	1147.41000	0.00700
129.77942	1147.46000	0.01000
130.05944	1147.41000	0.00900
130.33946	1147.49000	0.00600
130.61947	1147.46000	0.00500
130.89949	1147.56000	0.00400
131.17950	1147.73000	0.00800
131.45952	1147.95000	0.00800
131.73954	1148.17000	0.01100
132.01955	1148.29000	0.00800
132.29957	1148.52000	0.00900
132.57958	1148.62000	0.00700
132.85960	1148.54000	0.01000
133.13962	1148.31000	0.00800
133.41963	1148.26000	0.00800
133.69965	1148.15000	0.00800
133.97966	1148.09000	0.01100
134.25968	1148.00000	0.01000
134.53970	1147.93000	0.00900
134.81971	1147.63000	0.01200
135.09973	1147.31000	0.01400
135.37874	1147.10000	0.01400
135.65876	1147.02000	0.01200
135.93878	1146.99000	0.01200
136.21879	1146.89000	0.00900
136.49881	1146.83000	0.01100
136.77882	1146.62000	0.00800
137.05884	1146.51000	0.01100
137.33886	1146.28000	0.01300
137.61887	1146.37000	0.01100
137.89889	1146.22000	0.01100
138.17890	1146.13000	0.01300
138.45892	1146.07000	0.01000
138.73894	1146.11000	0.01300
139.01895	1146.07000	0.01300
139.29897	1146.05000	0.01200
139.57898	1146.03000	0.01100
139.85900	1146.07000	0.01200
140.13902	1146.03000	0.01300
140.41903	1145.92000	0.01300
140.69905	1145.73000	0.01400
140.97906	1145.58000	0.01500
141.25908	1145.31000	0.01500
141.53910	1145.27000	0.01600
141.81911	1145.11000	0.01700
142.09913	1144.83000	0.01400
142.37914	1144.64000	0.01600
142.65916	1144.34000	0.01600
142.93918	1144.13000	0.01400
143.21919	1143.88000	0.01400
143.49921	1143.73000	0.01400
143.77922	1143.46000	0.01400
144.05924	1143.21000	0.01600
144.33926	1142.96000	0.01800
144.61927	1142.84000	0.01700
144.89929	1142.77000	0.01600
145.17930	1142.78000	0.02000
145.45932	1142.62000	0.01700
145.73934	1142.24000	0.02000
146.01935	1142.15000	0.01500
146.29837	1142.17000	0.01500
146.56138	1142.30000	0.02100
146.83940	1142.65000	0.02100
147.11942	1142.78000	0.02100
147.39943	1142.89000	0.02000
147.67945	1142.90000	0.02000
147.95946	1142.98000	0.02200
148.23948	1143.23000	0.01900
148.51950	1143.40000	0.02200
148.79951	1143.62000	0.01900
149.07853	1143.08000	0.01900
149.35854	1143.45000	0.02000
149.63856	1143.90000	0.02200
149.91858	1144.16000	0.02200
150.19859	1144.39000	0.02300
150.47861	1144.61000	0.02000
150.75862	1145.06000	0.02000
151.03864	1145.55000	0.02100
151.31866	1145.70000	0.02400
151.59867	1145.91000	0.02200
151.87869	1145.92000	0.02200
152.15870	1146.15000	0.02200
152.43872	1146.43000	0.02000
152.71874	1146.66000	0.02500
152.99875	1146.69000	0.01900
153.27877	1146.87000	0.02000
153.55878	1147.09000	0.02500
153.83880	1147.18000	0.02200
154.11882	1147.29000	0.02100
154.39883	1147.38000	0.02300
154.67885	1147.25000	0.02500
154.95886	1147.24000	0.02600
155.23888	1147.20000	0.02500
155.51890	1146.96000	0.02600
155.79891	1146.90000	0.02500
156.07893	1146.82000	0.02400
156.35894	1146.83000	0.02500
156.63896	1146.64000	0.02200
156.91898	1146.63000	0.02500
157.19899	1146.76000	0.02500
157.47901	1147.08000	0.02500
157.75902	1147.14000	0.02600
158.03904	1147.04000	0.02600
158.31906	1147.20000	0.02800
158.59907	1147.20000	0.02800
158.87909	1147.21000	0.02800
159.15910	1147.16000	0.02700
159.43912	1147.31000	0.02600
159.71914	1147.56000	0.02500
159.99915	1147.77000	0.03100
160.27917	1147.82000	0.02700
160.55818	1147.83000	0.02600
160.82120	1147.98000	0.03200
161.09921	1148.13000	0.02900
161.37923	1148.16000	0.02800
161.65925	1148.15000	0.02600
161.93926	1148.01000	0.02700
162.21928	1147.97000	0.03200
162.49929	1147.96000	0.02800
162.77831	1147.20000	0.03100
163.05833	1147.55000	0.02800
163.33834	1147.81000	0.02800
163.61836	1148.04000	0.03000
163.89837	1148.15000	0.03000
164.17839	1148.11000	0.02700
164.45841	1147.97000	0.03100
164.73842	1147.92000	0.02900
165.01844	1148.01000	0.02800
165.29846	1148.00000	0.03100
165.57847	1147.97000	0.02800
165.85849	1147.86000	0.03100
166.13850	1147.94000	0.03100
166.41852	1148.04000	0.03000
166.69853	1148.25000	0.03100
166.97855	1148.23000	0.03200
167.25857	1148.16000	0.03000
167.53858	1148.12000	0.03200
167.81860	1148.03000	0.03100
168.09862	1148.10000	0.03300
168.37863	1147.93000	0.03300
168.65865	1147.96000	0.03300
168.93866	1148.13000	0.03300
169.21868	1148.35000	0.03000
169.49870	1148.56000	0.03400
169.77871	1148.55000	0.03500
170.05873	1148.66000	0.03400
170.33874	1148.75000	0.03200
170.61876	1148.66000	0.03300
170.89878	1148.57000	0.03600
171.17879	1148.41000	0.03300
171.45881	1148.25000	0.03500
171.73882	1148.05000	0.03400
172.01884	1148.01000	0.03200
172.29886	1147.97000	0.03500
172.57887	1147.93000	0.03500
172.85889	1147.76000	0.03300
173.13890	1147.70000	0.03600
173.41892	1147.71000	0.03500
173.69894	1147.67000	0.03700
173.97895	1147.76000	0.03800
174.25897	1147.77000	0.03800
174.53898	1147.86000	0.04000
174.81900	1147.75000	0.03500
175.09902	1147.85000	0.03700
175.37903	1147.80000	0.03900
175.65905	1147.79000	0.03800
175.93906	1147.72000	0.04100
176.21808	1147.50000	0.03900
176.49810	1147.39000	0.03800
176.77811	1147.24000	0.03800
177.05813	1147.09000	0.03700
177.33814	1146.96000	0.04000
177.61816	1146.84000	0.03700
177.89818	1146.79000	0.04000
178.17819	1146.69000	0.04000
178.45821	1146.80000	0.03900
178.73822	1146.76000	0.03800
179.01824	1146.76000	0.03900
179.29825	1146.69000	0.04000
179.57827	1146.57000	0.03900
179.85829	1146.64000	0.04000
180.13830	1146.55000	0.04200
180.41832	1146.36000	0.04200
180.69834	1146.16000	0.04500
180.97835	1146.09000	0.04200
181.25837	1145.96000	0.04300
181.53838	1145.97000	0.03700
181.81840	1146.20000	0.04400
182.09842	1146.11000	0.03900
182.37843	1146.08000	0.04100
182.65845	1145.89000	0.04300
182.93846	1145.69000	0.04200
183.21848	1145.64000	0.04000
183.49850	1145.54000	0.04000
183.77851	1145.42000	0.04200
184.05853	1145.35000	0.04300
184.33854	1145.22000	0.04300
184.61856	1145.15000	0.04200
184.89858	1145.10000	0.04500
185.17859	1144.89000	0.04400
185.45861	1144.63000	0.04400
185.73862	1144.37000	0.04100
186.01864	1144.22000	0.04600
186.29866	1144.32000	0.04200
186.57867	1144.30000	0.04400
186.85869	1144.24000	0.04500
187.13870	1144.16000	0.04400
187.41872	1143.97000	0.04800
187.69874	1143.76000	0.04700
187.97775	1143.55000	0.04700
188.24077	1143.43000	0.04700
188.51878	1143.20000	0.04700
188.79880	1143.00000	0.04600
189.07881	1142.71000	0.04800
189.35883	1142.57000	0.04500
189.63785	1141.84000	0.04500
189.91786	1141.90000	0.04500
190.19788	1141.96000	0.04500
190.47790	1142.11000	0.04500
190.75791	1142.24000	0.04500
191.03793	1142.27000	0.04700
191.31794	1142.32000	0.04800
191.59796	1142.36000	0.04900
191.87797	1142.37000	0.04600
192.15799	1142.41000	0.04800
192.43801	1142.44000	0.05000
192.71802	1142.39000	0.04800
192.99804	1142.54000	0.04800
193.27806	1142.64000	0.04600
193.55807	1142.77000	0.04700
193.83809	1142.90000	0.04800
194.11810	1142.92000	0.04700
194.39812	1142.90000	0.04700
194.67814	1142.78000	0.04900
194.95815	1142.71000	0.04700
195.23817	1142.73000	0.05000
195.51718	1142.71000	0.05100
195.78120	1142.60000	0.04900
196.05821	1141.93000	0.05000
196.33823	1142.18000	0.04900
196.61825	1142.39000	0.05200
196.89826	1142.52000	0.04900
197.17828	1142.54000	0.04800
197.45829	1142.56000	0.05100
197.73831	1142.61000	0.05000
198.01833	1142.57000	0.05100
198.29834	1142.42000	0.05200
198.57836	1142.46000	0.05000
198.85837	1142.65000	0.05100
199.13839	1142.66000	0.04800
199.41841	1142.78000	0.05000
199.69842	1142.70000	0.05100
199.97844	1142.66000	0.05100
200.25845	1142.73000	0.05200
200.53847	1142.76000	0.05200
200.81849	1142.91000	0.05500
201.09850	1142.78000	0.04900
201.37852	1142.83000	0.05000
201.65853	1142.73000	0.05400
201.93855	1142.75000	0.05100
202.21857	1142.60000	0.04900
202.49758	1142.60000	0.05100
202.76060	1142.51000	0.05500
203.03561	1141.89000	0.05400
203.30863	1142.25000	0.05100
203.58764	1142.63000	0.05400
203.86766	1142.86000	0.05300
204.14768	1142.78000	0.05400
204.42769	1142.81000	0.05200
204.70771	1143.07000	0.05400
204.98772	1143.22000	0.05000
205.26774	1143.45000	0.05300
205.54776	1143.54000	0.05100
205.82777	1143.62000	0.05500
206.10779	1143.56000	0.05400
206.38780	1143.64000	0.05200
206.66782	1143.51000	0.05400
206.94784	1143.68000	0.05200
207.22785	1143.72000	0.05500
207.50787	1143.75000	0.05400
207.78788	1143.78000	0.05400
208.06790	1143.87000	0.05300
208.34792	1144.07000	0.05600
208.62793	1144.29000	0.05500
208.90795	1144.39000	0.05400
209.18796	1144.53000	0.05500
209.46798	1144.66000	0.05400
209.74800	1144.80000	0.05100
210.02801	1144.77000	0.05500
210.30803	1144.79000	0.05300
210.58805	1144.73000	0.05400
210.86806	1144.70000	0.05300
211.14808	1145.02000	0.05700
211.42809	1145.11000	0.05600
211.70811	1145.34000	0.05800
211.98813	1145.46000	0.05600
212.26814	1145.78000	0.05300
212.54816	1145.98000	0.05800
212.82817	1146.02000	0.05700
213.10819	1145.84000	0.05500
213.38821	1145.58000	0.05800
213.66822	1145.61000	0.05500
213.94824	1145.82000	0.05700
214.22825	1145.86000	0.05300
214.50827	1146.01000	0.05400
214.78829	1146.11000	0.05600
215.06830	1146.00000	0.06100
215.34832	1146.07000	0.05500
215.62833	1146.01000	0.05700
215.90835	1146.10000	0.05900
216.18837	1146.15000	0.05400
216.46738	1146.19000	0.05700
216.74840	1146.16000	0.05700
217.02741	1146.13000	0.05600
217.30743	1146.02000	0.05400
217.58745	1146.01000	0.06000
217.86746	1146.05000	0.05600
218.14748	1146.17000	0.05400
218.42749	1146.27000	0.06100
218.70751	1146.32000	0.05900
218.98753	1146.48000	0.05600
219.26754	1146.58000	0.05800
219.54756	1146.64000	0.05800
219.82757	1146.86000	0.05700
220.10759	1147.01000	0.05900
220.38761	1146.94000	0.05700
220.66762	1146.92000	0.05800
220.94764	1146.86000	0.05600
221.22765	1146.96000	0.05500
221.50767	1147.14000	0.06100
221.78769	1147.24000	0.05600
222.06770	1147.18000	0.05800
222.34772	1147.15000	0.05900
222.62773	1147.15000	0.05900
222.90775	1147.31000	0.06000
223.18777	1147.34000	0.06000
223.46778	1147.40000	0.06100
223.74780	1147.45000	0.05600
224.02781	1147.37000	0.05800
224.30783	1147.39000	0.05700
224.58785	1147.16000	0.05700
224.86786	1147.17000	0.05700
225.14788	1147.19000	0.05700
225.42789	1147.32000	0.05700
225.70791	1147.31000	0.05900
225.98793	1147.38000	0.05900
226.26794	1147.36000	0.05800
226.54796	1147.51000	0.06100
226.82797	1147.61000	0.06300
227.10799	1147.61000	0.06000
227.38801	1147.68000	0.06000
227.66802	1147.62000	0.05900
227.94804	1147.59000	0.05800
228.22805	1147.63000	0.06100
228.50807	1147.63000	0.05700
228.78809	1147.58000	0.06000
229.06810	1147.51000	0.05700
229.34812	1147.54000	0.05600
229.62713	1147.56000	0.06200
229.90115	1147.63000	0.05600
230.17517	1146.69000	0.06000
230.44718	1146.74000	0.05900
230.72820	1146.88000	0.06200
231.00721	1147.09000	0.06000
231.28723	1147.16000	0.06200
231.56725	1147.14000	0.06000
231.84726	1147.17000	0.06000
232.12728	1147.45000	0.06000
232.40729	1147.45000	0.06000
232.68731	1147.55000	0.06100
232.96733	1147.53000	0.05900
233.24734	1147.40000	0.06000
233.52736	1147.51000	0.05700
233.80737	1147.46000	0.06000
234.08739	1147.62000	0.05800
234.36741	1147.68000	0.06100
234.64742	1147.75000	0.06100
234.92744	1147.70000	0.06100
235.20745	1147.84000	0.06200
235.48747	1147.73000	0.06400
235.76749	1147.62000	0.05800
236.04750	1147.51000	0.06100
236.32752	1147.63000	0.06300
236.60753	1147.77000	0.05700
236.88755	1147.92000	0.06000
237.16757	1147.84000	0.06100
237.44758	1147.95000	0.06100
237.72760	1148.09000	0.06100
238.00761	1148.07000	0.06000
238.28763	1148.18000	0.06200
238.56765	1148.17000	0.06100
238.84766	1148.07000	0.05900
239.12768	1148.14000	0.06100
239.40769	1148.15000	0.05900
239.68771	1148.30000	0.06000
239.96773	1148.34000	0.05900
240.24774	1148.48000	0.06200
240.52776	1148.58000	0.06100
240.80777	1148.57000	0.05900
241.08779	1148.45000	0.05800
241.36781	1148.44000	0.05900
241.64782	1148.39000	0.06300
241.92784	1148.18000	0.05900
242.20785	1147.92000	0.05900
242.48787	1147.82000	0.05900
242.76789	1147.75000	0.05900
243.04790	1147.70000	0.06200
243.32692	1147.66000	0.05900
243.60093	1147.77000	0.06000
243.87495	1147.08000	0.06000
244.14796	1147.30000	0.06100
244.42798	1147.30000	0.06000
244.70700	1147.25000	0.06200
244.98701	1147.26000	0.06300
245.26803	1147.20000	0.06000
245.54704	1147.28000	0.06200
245.82806	1147.35000	0.06200
246.10808	1147.27000	0.05700
246.38709	1147.39000	0.05900
246.66711	1147.34000	0.06300
246.94712	1147.33000	0.05800
247.22714	1147.38000	0.06100
247.50716	1147.49000	0.05900
247.78717	1147.33000	0.05900
248.06719	1147.11000	0.06000
248.34720	1146.94000	0.06200
248.62722	1146.59000	0.06100
248.90724	1146.60000	0.06000
249.18725	1146.64000	0.06000
249.46727	1146.67000	0.06100
249.74728	1146.64000	0.06100
250.02730	1146.79000	0.06000
250.30732	1146.86000	0.05800
250.58733	1146.80000	0.06000
250.86735	1146.62000	0.06000
251.14736	1146.35000	0.05900
251.42738	1146.18000	0.05900
251.70740	1146.01000	0.06000
251.98741	1145.84000	0.06200
252.26743	1145.89000	0.06100
252.54745	1145.84000	0.06100
252.82746	1145.59000	0.06100
253.10748	1145.48000	0.06000
253.38749	1145.35000	0.06000
253.66751	1145.24000	0.05900
253.94753	1145.23000	0.05800
254.22754	1145.22000	0.06000
254.50756	1145.06000	0.06000
254.78757	1144.88000	0.06000
255.06759	1144.72000	0.06000
255.34761	1144.57000	0.05800
255.62762	1144.35000	0.05900
255.90764	1144.21000	0.05900
256.18765	1144.17000	0.06100
256.46767	1143.83000	0.06300
256.74769	1143.65000	0.06100
257.02770	1143.50000	0.06200
257.30772	1143.45000	0.06100
257.58773	1143.29000	0.06000
257.86675	1143.10000	0.05800
258.14777	1143.14000	0.05800
258.42678	1143.25000	0.06000
258.70680	1143.37000	0.05900
258.98781	1143.39000	0.05700
259.26683	1143.36000	0.05900
259.54785	1143.26000	0.06200
259.82686	1143.14000	0.05900
260.10688	1143.00000	0.05800
260.38689	1142.82000	0.06000
260.66691	1142.64000	0.05700
260.94693	1142.68000	0.05700
261.22694	1142.62000	0.06100
261.50696	1142.56000	0.05700
261.78697	1142.53000	0.06100
262.06699	1142.47000	0.06100
262.34701	1142.45000	0.05600
262.62702	1142.43000	0.05900
262.90704	1142.41000	0.06000
263.18705	1142.35000	0.05600
263.46707	1142.27000	0.05800
263.74709	1142.23000	0.05700
264.02710	1142.24000	0.05900
264.30712	1142.23000	0.05600
264.58713	1142.26000	0.05900
264.86715	1142.30000	0.05800
265.14717	1142.18000	0.05800
265.42618	1142.36000	0.05800
265.70020	1142.63000	0.06000
265.97321	1142.19000	0.05600
266.24723	1142.49000	0.06000
266.52724	1142.56000	0.05900
266.80726	1142.64000	0.06000
267.08728	1142.82000	0.05700
267.36729	1143.01000	0.06300
267.64731	1143.16000	0.06000
267.92732	1143.27000	0.05900
268.20734	1143.58000	0.05700
268.48736	1143.48000	0.05900
268.76737	1143.59000	0.05900
269.04739	1143.87000	0.05600
269.32740	1144.05000	0.05700
269.60742	1144.14000	0.05500
269.88744	1144.41000	0.05800
270.16745	1144.63000	0.05500
270.44747	1144.86000	0.05500
270.72748	1145.09000	0.05700
271.00750	1145.24000	0.05900
271.28752	1145.54000	0.05800
271.56753	1145.72000	0.06000
271.84755	1145.95000	0.05900
272.12756	1146.06000	0.05700
272.40758	1146.17000	0.05500
272.68760	1146.32000	0.05700
272.96661	1146.49000	0.05900
273.24663	1146.61000	0.05800
273.52664	1146.84000	0.05900
273.80666	1146.92000	0.05600
274.08668	1147.11000	0.05400
274.36669	1147.20000	0.06000
274.64671	1147.33000	0.06000
274.92673	1147.45000	0.05300
275.20674	1147.27000	0.05800
275.48676	1147.45000	0.05900
275.76677	1147.66000	0.05800
276.04679	1147.73000	0.05700
276.32681	1147.86000	0.05700
276.60682	1147.98000	0.05800
276.88684	1148.02000	0.05800
277.16685	1147.91000	0.05600
277.44687	1147.98000	0.05600
277.72689	1148.03000	0.05800
278.00690	1148.26000	0.05400
278.28692	1148.24000	0.05500
278.56693	1148.08000	0.05500
278.84695	1147.92000	0.05700
279.12697	1147.88000	0.05500
279.40698	1147.91000	0.05700
279.68700	1147.77000	0.05600
279.96701	1147.52000	0.05500
280.24703	1147.22000	0.05600
280.52705	1146.93000	0.05700
280.80706	1146.64000	0.05700
281.08708	1146.62000	0.05800
281.36709	1146.67000	0.05600
281.64711	1146.63000	0.05500
281.92713	1146.14000	0.05800
282.20714	1145.71000	0.05000
282.48716	1145.26000	0.05200
282.76717	1144.90000	0.05400
283.04719	1144.82000	0.05700
283.32721	1144.74000	0.05400
283.60722	1144.64000	0.05600
283.88724	1144.53000	0.05300
284.16725	1144.66000	0.05600
284.44727	1144.69000	0.05400
284.72729	1144.72000	0.05100
285.00730	1144.72000	0.05000
285.28632	1144.74000	0.05300
285.56033	1144.70000	0.05200
285.83335	1143.51000	0.05200
286.10736	1143.56000	0.05100
286.38738	1143.34000	0.05000
286.66740	1143.25000	0.05100
286.94641	1143.10000	0.05200
287.22643	1142.98000	0.05300
287.50644	1143.04000	0.05300
287.78646	1142.89000	0.05000
288.06648	1142.79000	0.05500
288.34649	1142.57000	0.05400
288.62651	1142.55000	0.05100
288.90652	1142.36000	0.05400
289.18654	1142.24000	0.05300
289.46656	1142.17000	0.05100
289.74657	1142.03000	0.05400
290.02659	1141.87000	0.05200
290.30660	1141.69000	0.05500
290.58662	1141.45000	0.05100
290.86664	1141.33000	0.05300
291.14665	1141.35000	0.05400
291.42667	1141.52000	0.05300
291.70668	1141.73000	0.05000
291.98670	1141.92000	0.05100
292.26672	1141.93000	0.05500
292.54673	1141.80000	0.05300
292.82675	1141.62000	0.05300
293.10676	1141.67000	0.04900
293.38678	1141.85000	0.05100
293.66680	1141.98000	0.05200
293.94681	1142.12000	0.05100
294.22683	1142.32000	0.05100
294.50684	1142.43000	0.05100
294.78686	1142.50000	0.05000
295.06688	1142.69000	0.05400
295.34689	1142.81000	0.04800
295.62691	1142.89000	0.04900
295.90693	1142.96000	0.04800
296.18694	1143.01000	0.04900
296.46696	1142.97000	0.05100
296.74597	1143.14000	0.05100
297.02099	1143.33000	0.05100
297.29400	1142.87000	0.05000
297.56702	1143.11000	0.05200
297.84704	1143.25000	0.04800
298.12705	1143.50000	0.04900
298.40707	1143.70000	0.05200
298.68708	1143.93000	0.05100
298.96710	1144.17000	0.05200
299.24712	1144.19000	0.05000
299.52713	1144.29000	0.05300
299.80715	1144.45000	0.04800
300.08616	1144.85000	0.05000
300.36718	1145.23000	0.04900
300.64620	1145.29000	0.05100
300.92621	1145.29000	0.04800
301.20623	1145.44000	0.05100
301.48624	1145.58000	0.04900
301.76626	1145.94000	0.05200
302.04628	1146.04000	0.04800
302.32629	1146.16000	0.05000
302.60631	1146.27000	0.04900
302.88632	1146.45000	0.04800
303.16634	1146.67000	0.05000
303.44636	1146.84000	0.05100
303.72637	1146.79000	0.04900
304.00639	1147.02000	0.05200
304.28640	1147.24000	0.05000
304.56642	1147.45000	0.04800
304.84644	1147.64000	0.04900
305.12645	1147.84000	0.04900
305.40647	1147.81000	0.04800
305.68648	1147.70000	0.04900
305.96650	1147.63000	0.04700
306.24652	1147.60000	0.04900
306.52653	1147.56000	0.04800
306.80655	1147.62000	0.04900
307.08657	1147.75000	0.04800
307.36658	1147.81000	0.05100
307.64660	1147.87000	0.05000
307.92661	1147.92000	0.04800
308.20663	1147.93000	0.04800
308.48664	1147.72000	0.04700
308.76666	1147.34000	0.04500
309.04668	1147.11000	0.04800
309.32669	1147.09000	0.04700
309.60671	1147.17000	0.04800
309.88672	1147.25000	0.04700
310.16674	1147.11000	0.04700
310.44676	1147.08000	0.04900
310.72677	1146.89000	0.04600
311.00679	1146.78000	0.04800
311.28680	1146.63000	0.04900
311.56682	1146.31000	0.04700
311.84684	1146.04000	0.04800
312.12685	1145.72000	0.04600
312.40687	1145.42000	0.04800
312.68588	1145.14000	0.04800
312.96090	1144.88000	0.04800
313.24392	1144.49000	0.04900
313.51193	1143.55000	0.04700
313.78695	1143.50000	0.04700
314.06696	1143.37000	0.04500
314.34598	1143.36000	0.04700
314.62600	1143.29000	0.04800
314.90601	1143.09000	0.04700
315.18603	1142.82000	0.04800
315.46604	1142.53000	0.04600
315.74606	1142.33000	0.04800
316.02608	1142.23000	0.04500
316.30609	1142.20000	0.04800
316.58611	1142.27000	0.04400
316.86612	1142.44000	0.04700
317.14614	1142.77000	0.04400
317.42616	1143.10000	0.04200
317.70617	1143.20000	0.04500
317.98619	1143.34000	0.04500
318.26620	1143.64000	0.04400
318.54622	1144.02000	0.04100
318.82624	1144.08000	0.04500
319.10625	1143.87000	0.04500
319.38627	1143.86000	0.04600
319.66628	1143.97000	0.04500
319.94630	1144.22000	0.04700
320.22632	1144.50000	0.04500
320.50633	1144.73000	0.04300
320.78635	1144.99000	0.04700
321.06636	1145.37000	0.04800
321.34638	1145.27000	0.04700
321.62640	1144.81000	0.04500
321.90641	1144.90000	0.04600
322.18643	1145.17000	0.04700
322.46644	1145.09000	0.04400
322.74646	1145.07000	0.04400
323.02648	1145.09000	0.04300
323.30649	1145.33000	0.04500
323.58651	1145.47000	0.04500
323.86652	1145.70000	0.04300
324.14654	1145.80000	0.04600
324.42656	1145.75000	0.04600
324.70657	1145.93000	0.04600
324.98659	1146.27000	0.04500
325.26660	1146.38000	0.04400
325.54662	1146.38000	0.04300
325.82664	1146.43000	0.04500
326.10665	1146.43000	0.04600
326.38567	1146.41000	0.04300
326.66068	1146.41000	0.04600
326.93270	1145.69000	0.04800
327.20672	1146.04000	0.04500
327.48673	1146.50000	0.04400
327.76575	1146.60000	0.04500
328.04576	1146.77000	0.04400
328.32578	1146.90000	0.04600
328.60580	1147.03000	0.04600
328.88581	1147.11000	0.04200
329.16583	1147.11000	0.04100
329.44584	1147.11000	0.04400
329.72586	1147.19000	0.04500
330.00588	1147.24000	0.04200
330.28589	1147.40000	0.04400
330.56591	1147.54000	0.04300
330.84592	1147.61000	0.04500
331.12594	1147.58000	0.04400
331.40596	1147.50000	0.04400
331.68597	1147.45000	0.04500
331.96599	1147.46000	0.04500
332.24600	1147.49000	0.04200
332.52602	1147.53000	0.04100
332.80604	1147.64000	0.04300
333.08605	1147.75000	0.04300
333.36607	1148.03000	0.04400
333.64608	1148.04000	0.04300
333.92610	1147.86000	0.04500
334.20612	1147.59000	0.04500
334.48613	1147.32000	0.04300
334.76615	1147.12000	0.04200
335.04616	1147.17000	0.04100
335.32618	1147.03000	0.04400
335.60620	1146.94000	0.04200
335.88621	1146.77000	0.04300
336.16623	1146.68000	0.04200
336.44624	1146.52000	0.04400
336.72626	1146.34000	0.04300
337.00628	1146.15000	0.04000
337.28629	1145.80000	0.04500
337.56631	1145.68000	0.04400
337.84632	1145.54000	0.04400
338.12634	1145.22000	0.04100
338.40636	1144.94000	0.04400
338.68637	1144.85000	0.04400
338.96639	1144.81000	0.04200
339.24640	1144.71000	0.04100
339.52642	1144.48000	0.04200
339.80644	1144.24000	0.04300
340.08645	1144.06000	0.04500
340.36547	1143.71000	0.04100
340.64048	1143.57000	0.04200
340.91150	1142.86000	0.04500
341.18652	1142.88000	0.04300
341.46553	1142.94000	0.04300
341.74555	1142.48000	0.04000
342.02556	1142.28000	0.04100
342.30558	1142.15000	0.04300
342.58560	1142.02000	0.04200
342.86561	1141.97000	0.04500
343.14563	1141.87000	0.04500
343.42564	1141.80000	0.04400
343.70566	1141.68000	0.04100
343.98568	1141.77000	0.04400
344.26569	1142.03000	0.04000
344.54571	1142.19000	0.04200
344.82572	1142.35000	0.04000
345.10574	1142.55000	0.04300
345.38576	1142.81000	0.04000
345.66577	1143.09000	0.04400
345.94579	1143.14000	0.04000
346.22580	1143.20000	0.04000
346.50582	1143.30000	0.04200
346.78584	1142.35000	0.04200
347.06585	1142.07000	0.04100
347.34587	1142.01000	0.04000
347.62588	1142.76000	0.04000
347.90590	1143.46000	0.03900
348.18591	1143.63000	0.04100
348.46593	1144.10000	0.04300
348.74595	1144.63000	0.04200
349.02596	1144.90000	0.04200
349.30598	1145.11000	0.04100
349.58400	1145.24000	0.04000
349.85201	1144.93000	0.04600
350.12603	1145.32000	0.04100
350.40604	1145.65000	0.03900
350.68606	1145.91000	0.04200
350.96607	1146.05000	0.04200
351.24409	1146.51000	0.04100
351.51411	1146.08000	0.04400
351.78612	1146.26000	0.04400
352.06414	1146.34000	0.04100
352.33415	1145.63000	0.04200
352.60617	1145.80000	0.04500
352.88518	1146.10000	0.04100
353.16020	1146.30000	0.04100
353.43222	1146.04000	0.04300
353.70423	1146.23000	0.04200
353.97225	1146.00000	0.04600
354.24626	1146.40000	0.04200
354.52628	1146.57000	0.04500
354.80429	1146.54000	0.03900
355.07231	1146.03000	0.04400
355.34432	1146.42000	0.04500
355.61234	1145.87000	0.04400
355.88636	1146.15000	0.04400
356.16637	1146.33000	0.04100
356.44639	1146.45000	0.04200
356.72640	1146.58000	0.04300
357.00642	1146.56000	0.04200
357.28644	1146.68000	0.04300
357.56545	1146.63000	0.04000
357.84547	1146.56000	0.04200
358.12448	1146.50000	0.04500
358.39150	1145.80000	0.04500
358.66551	1146.27000	0.04400
358.94453	1146.55000	0.04000
359.21255	1146.01000	0.04100
359.48556	1146.36000	0.04400
359.76558	1146.61000	0.04100
360.04559	1146.74000	0.04300
360.32561	1146.93000	0.04500
360.60563	1147.13000	0.04400
360.88464	1147.22000	0.04200
361.15166	1146.63000	0.04700
361.42467	1146.85000	0.04300
361.70069	1146.97000	0.04200
361.97170	1146.29000	0.03900
362.24572	1146.50000	0.04600
362.52574	1146.76000	0.04200
362.80375	1146.77000	0.04200
363.07177	1146.06000	0.04600
363.34378	1146.44000	0.04600
363.61180	1146.02000	0.04600
363.88381	1146.51000	0.04600
364.15183	1146.37000	0.04100
364.42384	1146.67000	0.04300
364.69186	1146.28000	0.04600
364.96588	1146.71000	0.04400
365.24389	1146.86000	0.04300
365.51191	1146.20000	0.04500
365.78592	1146.48000	0.04300
366.06394	1146.62000	0.04000
366.33195	1146.16000	0.04700
366.60397	1146.56000	0.04300
366.87198	1146.07000	0.04500
367.14400	1146.36000	0.04400
367.41201	1145.97000	0.04400
367.68403	1146.33000	0.04200
367.95205	1145.74000	0.04700
368.22406	1146.28000	0.04400
368.49208	1146.19000	0.04600
368.76409	1146.61000	0.04400
369.03211	1146.06000	0.04500
369.30412	1146.41000	0.04500
369.57214	1145.82000	0.04000
369.84415	1146.21000	0.04500
370.11217	1145.64000	0.04600
370.38418	1145.99000	0.04500
370.65320	1145.50000	0.04500
370.92422	1146.09000	0.04300
371.19223	1145.87000	0.04600
371.46425	1146.40000	0.04500
371.73226	1146.12000	0.04200
372.00428	1146.63000	0.04000
372.27329	1146.24000	0.04100
372.54431	1146.58000	0.04400
372.81332	1146.32000	0.04500
373.08434	1146.89000	0.04400
373.35336	1146.60000	0.04300
373.62437	1146.87000	0.04400
373.89139	1146.26000	0.04400
374.16440	1146.61000	0.04400
374.43342	1146.08000	0.04300
374.70443	1146.59000	0.04500
374.97345	1146.18000	0.04600
375.24446	1146.58000	0.04500
375.51148	1146.04000	0.04400
375.78449	1146.34000	0.04600
376.05351	1146.01000	0.04700
376.32452	1146.42000	0.04300
376.59354	1145.86000	0.04800
376.86456	1146.53000	0.04800
377.13157	1145.78000	0.04700
377.40459	1146.08000	0.04800
377.67360	1145.44000	0.04800
377.94462	1145.79000	0.04700
378.21363	1145.40000	0.04600
378.48465	1145.89000	0.04600
378.76066	1145.98000	0.04700
379.03168	1145.25000	0.04600
379.30370	1145.82000	0.04700
379.57171	1145.66000	0.04300
379.84373	1146.22000	0.04700
380.11274	1145.73000	0.04500
380.38376	1146.02000	0.04600
380.65177	1145.49000	0.04800
380.92379	1145.71000	0.04600
381.19180	1145.17000	0.04400
381.46382	1145.72000	0.04800
381.73283	1145.23000	0.04500
382.00385	1145.52000	0.04800
382.27386	1145.10000	0.04700
382.54388	1145.54000	0.04600
382.81290	1145.27000	0.05000
383.08491	1145.87000	0.04800
383.36493	1146.12000	0.04800
383.64394	1146.01000	0.04800
383.91196	1145.42000	0.04900
384.18397	1145.86000	0.04600
384.45399	1145.38000	0.04700
384.72501	1145.81000	0.04800
385.00402	1146.22000	0.05000
385.27204	1145.85000	0.04600
385.54405	1146.02000	0.04800
385.81207	1145.34000	0.04900
386.08408	1145.49000	0.04600
386.35210	1144.99000	0.05000
386.62511	1145.27000	0.04700
386.90413	1145.31000	0.04900
387.17215	1144.64000	0.04800
387.44516	1144.83000	0.04900
387.72518	1145.00000	0.04900
388.00419	1144.94000	0.04800
388.27321	1144.35000	0.04800
388.54522	1144.89000	0.04800
388.82424	1144.95000	0.04800
389.09226	1144.09000	0.05100
389.36527	1144.19000	0.05000
389.64429	1144.25000	0.05000
389.91230	1143.50000	0.04800
390.18432	1143.71000	0.04900
390.45233	1143.33000	0.04900
390.72435	1143.74000	0.05100
390.99136	1143.36000	0.04800
391.26538	1143.94000	0.04700
391.54439	1144.02000	0.05000
391.81241	1143.46000	0.05100
392.08543	1143.88000	0.04800
392.36344	1144.08000	0.04800
392.63146	1143.62000	0.05200
392.90447	1143.79000	0.04900
393.17149	1143.31000	0.04800
393.44450	1143.44000	0.05100
393.71152	1142.79000	0.05100
393.98454	1143.01000	0.05300
394.25155	1142.26000	0.05200
394.52557	1142.43000	0.05200
394.80458	1142.61000	0.05200
395.07160	1142.36000	0.05200
395.34361	1142.66000	0.04800
395.61163	1142.50000	0.05300
395.88564	1142.76000	0.05100
396.16566	1143.05000	0.05200
396.44368	1143.28000	0.05100
396.71169	1142.86000	0.05400
396.98371	1142.97000	0.05200
397.25172	1142.35000	0.05100
397.52374	1142.42000	0.05300
397.79275	1141.62000	0.05100
398.06377	1141.93000	0.05200
398.33178	1141.42000	0.05200
398.60380	1141.83000	0.05300
398.87281	1141.36000	0.05300
399.14383	1141.70000	0.05200
399.41185	1141.42000	0.05100
399.68486	1141.81000	0.05600
399.96488	1142.16000	0.05100
400.24489	1142.25000	0.05300
400.52491	1142.35000	0.05600
400.80492	1142.30000	0.05100
401.08494	1142.29000	0.05700
401.36496	1142.27000	0.05600
401.64497	1142.27000	0.05400
401.92499	1142.49000	0.05500
402.20500	1142.59000	0.05100
402.48502	1142.68000	0.05100
402.76504	1142.71000	0.05500
403.04505	1142.80000	0.05100
403.32507	1142.93000	0.05300
403.60509	1142.87000	0.05200
403.88510	1142.72000	0.05400
404.16512	1142.59000	0.05200
404.44513	1142.45000	0.05400
404.72515	1142.34000	0.05600
405.00517	1142.24000	0.05700
405.28518	1142.29000	0.05700
405.56520	1142.38000	0.05700
405.84521	1142.57000	0.05900
406.12523	1142.67000	0.05500
406.40525	1142.83000	0.05500
406.68526	1142.93000	0.05700
406.96528	1143.05000	0.05900
407.24529	1143.14000	0.05800
407.52531	1143.22000	0.05500
407.80533	1143.44000	0.05500
408.08534	1143.77000	0.05600
408.36536	1143.91000	0.05400
408.64537	1143.93000	0.05400
408.92539	1143.97000	0.05700
409.20541	1144.03000	0.06100
409.48542	1143.91000	0.05700
409.76544	1143.86000	0.05700
410.04545	1143.78000	0.05800
410.32547	1143.79000	0.05500
410.60549	1144.14000	0.05900
410.88550	1144.37000	0.05700
411.16552	1144.52000	0.05900
411.44553	1144.81000	0.05700
411.72455	1144.97000	0.06000
412.00457	1145.18000	0.05900
412.28458	1145.28000	0.06100
412.56460	1145.56000	0.05700
412.84461	1145.84000	0.06200
413.12463	1145.96000	0.05700
413.40465	1146.15000	0.05800
413.68366	1146.40000	0.05700
413.95168	1145.63000	0.06200
414.22469	1146.01000	0.05900
414.50371	1146.42000	0.05600
414.77272	1145.93000	0.06000
415.04474	1146.61000	0.06100
415.32376	1147.21000	0.05700
415.59177	1146.60000	0.05800
415.86279	1147.09000	0.06200
416.13180	1146.77000	0.06100
416.40482	1147.21000	0.06100
416.68283	1147.64000	0.06100
416.95185	1146.88000	0.06200
417.22286	1147.32000	0.06200
417.49288	1146.74000	0.06100
417.76290	1147.10000	0.06300
418.03191	1146.57000	0.06200
418.30293	1147.23000	0.06000
418.57194	1146.80000	0.06100
418.84396	1147.44000	0.06000
419.11297	1146.98000	0.06000
419.38299	1147.35000	0.06500
419.65200	1146.80000	0.06100
419.92302	1147.18000	0.06300
420.19203	1146.78000	0.06200
420.46305	1147.06000	0.06400
420.73206	1146.39000	0.06500
421.00308	1146.69000	0.06500
421.27310	1146.14000	0.06500
421.54311	1146.61000	0.06100
421.81113	1146.24000	0.06700
422.08314	1146.56000	0.06200
422.35316	1146.16000	0.06300
422.62317	1146.58000	0.06500
422.89319	1145.97000	0.06300
423.16320	1146.15000	0.06200
423.43122	1145.47000	0.06700
423.70323	1145.88000	0.06400
423.97325	1145.62000	0.06600
424.24327	1145.93000	0.06500
424.51128	1145.49000	0.06600
424.78330	1145.84000	0.06600
425.05331	1145.29000	0.06200
425.32333	1145.42000	0.06400
425.59334	1145.01000	0.06100
425.86336	1145.39000	0.06500
426.13337	1144.88000	0.06800
426.40339	1145.01000	0.06600
426.67140	1144.05000	0.06900
426.94342	1144.01000	0.07000
427.21244	1143.44000	0.06500
427.48345	1143.57000	0.06800
427.75247	1142.82000	0.06600
428.02348	1142.86000	0.06600
428.29350	1142.15000	0.06900
428.56351	1142.37000	0.07000
428.83253	1141.80000	0.06600
429.10354	1142.14000	0.07000
429.37356	1141.59000	0.06600
429.64457	1141.96000	0.06500
429.92359	1142.17000	0.06800
430.19261	1141.39000	0.07000
430.46362	1141.69000	0.07100
430.73264	1141.20000	0.06900
431.00365	1141.58000	0.06600
431.27267	1141.06000	0.06600
431.54368	1141.38000	0.06900
431.81270	1141.01000	0.06700
432.08371	1141.59000	0.06900
432.35273	1141.40000	0.07000
432.62374	1141.98000	0.06700
432.89276	1141.68000	0.06900
433.16378	1142.24000	0.06900
433.43279	1141.74000	0.07000
433.70281	1142.28000	0.07000
433.97282	1141.73000	0.07100
434.24284	1142.20000	0.07100
434.51285	1141.81000	0.06700
434.78287	1142.39000	0.07300
435.05288	1141.95000	0.07200
435.32290	1142.42000	0.07100
435.59291	1141.89000	0.07300
435.86293	1142.56000	0.07000
436.13295	1142.46000	0.07100
436.40296	1143.35000	0.07100
436.67298	1143.17000	0.07100
436.94299	1143.92000	0.07100
437.21301	1143.63000	0.07100
437.48302	1144.05000	0.07400
437.75304	1143.67000	0.07100
438.02305	1144.24000	0.07200
438.29307	1143.87000	0.07400
438.56308	1144.35000	0.07200
438.83310	1144.06000	0.07100
439.10312	1144.74000	0.07400
439.37313	1144.28000	0.07300
439.64315	1144.72000	0.07300
439.91316	1144.09000	0.07400
440.18318	1144.72000	0.07100
440.45319	1144.38000	0.07200
440.72321	1145.07000	0.07400
440.99222	1144.72000	0.07400
441.26324	1145.34000	0.07300
441.53225	1144.77000	0.07300
441.80327	1145.37000	0.07300
442.07329	1144.91000	0.07500
442.34330	1145.48000	0.07200
442.61332	1145.11000	0.07500
442.88333	1145.73000	0.07400
443.15235	1145.34000	0.07500
443.42336	1145.86000	0.07600
443.69238	1145.69000	0.07700
443.96339	1146.28000	0.07500
444.23241	1145.66000	0.07500
444.50342	1146.25000	0.07600
444.77244	1145.85000	0.07700
445.04446	1146.44000	0.07600
445.32347	1146.71000	0.07600
445.59249	1146.04000	0.07700
445.86350	1146.65000	0.07900
446.13252	1146.37000	0.07500
446.40453	1147.04000	0.07300
446.68355	1147.60000	0.07800
446.95256	1147.20000	0.07900
447.22258	1147.66000	0.07600
447.49260	1147.05000	0.07600
447.76461	1147.46000	0.07600
448.04263	1147.57000	0.07600
448.31264	1146.82000	0.07800
448.58266	1147.42000	0.07800
448.85267	1147.04000	0.07600
449.12469	1147.59000	0.07800
449.40270	1147.90000	0.07600
449.67272	1147.44000	0.07900
449.94274	1147.69000	0.07700
450.21275	1147.15000	0.07800
450.48477	1147.73000	0.07900
450.76478	1147.88000	0.08200
451.04480	1147.83000	0.07800
451.32281	1147.80000	0.08100
451.59283	1147.25000	0.08100
451.86285	1147.54000	0.07900
452.13286	1146.86000	0.07900
452.40488	1147.16000	0.07600
452.68489	1147.49000	0.08200
452.96391	1147.65000	0.08200
453.24392	1147.79000	0.08000
453.52294	1147.86000	0.08200
453.79296	1147.37000	0.07800
454.06397	1147.62000	0.08000
454.34299	1147.66000	0.08000
454.61200	1146.99000	0.08200
454.88402	1147.27000	0.08000
455.16303	1147.37000	0.08400
455.43205	1146.46000	0.07800
455.70406	1146.66000	0.07800
455.98408	1146.71000	0.08000
456.26410	1146.49000	0.08200
456.54411	1146.44000	0.08200
456.82413	1146.41000	0.08100
457.10414	1146.39000	0.08400
457.38416	1146.49000	0.07800
457.66318	1146.49000	0.08300
457.93219	1145.93000	0.08300
458.20321	1146.12000	0.08300
458.47322	1145.59000	0.07800
458.74424	1145.73000	0.08700
459.02426	1145.79000	0.08000
459.30227	1145.94000	0.08100
459.57229	1145.27000	0.08000
459.84430	1145.35000	0.08100
460.12432	1145.41000	0.08300
460.40433	1145.38000	0.08600
460.68435	1145.29000	0.08300
460.96437	1145.26000	0.08600
461.24438	1145.15000	0.07900
461.52240	1145.09000	0.08500
461.79241	1144.22000	0.08400
462.06443	1144.36000	0.08600
462.34244	1144.36000	0.08200
462.61246	1143.60000	0.08500
462.88248	1143.83000	0.08400
463.15249	1143.32000	0.08200
463.42251	1143.60000	0.08600
463.69252	1143.11000	0.08300
463.96254	1143.14000	0.08300
464.23255	1142.51000	0.08400
464.50257	1142.78000	0.08700
464.77258	1142.18000	0.08400
465.04260	1142.42000	0.08400
465.31161	1141.62000	0.08300
465.58263	1141.82000	0.08600
465.85265	1141.18000	0.08300
466.12366	1141.47000	0.08400
466.40368	1141.66000	0.08200
466.68269	1141.85000	0.08600
466.95171	1141.15000	0.08500
467.22372	1141.62000	0.08500
467.50274	1142.11000	0.08300
467.77176	1141.53000	0.08800
468.04377	1141.99000	0.08700
468.32279	1142.38000	0.08300
468.59280	1142.04000	0.08500
468.86282	1142.48000	0.08500
469.13283	1142.16000	0.08500
469.40285	1142.86000	0.08900
469.67186	1142.70000	0.08700
469.94288	1143.37000	0.08500
470.21290	1143.17000	0.08700
470.48391	1143.88000	0.08700
470.76293	1144.39000	0.08800
471.03194	1143.83000	0.08700
471.30396	1144.34000	0.08600
471.58297	1145.00000	0.08700
471.85199	1144.86000	0.08800
472.12300	1145.52000	0.08700
472.39202	1145.11000	0.08900
472.66404	1145.78000	0.08800
472.94205	1146.12000	0.09000
473.21207	1145.43000	0.09000
473.48308	1145.89000	0.08700
473.75210	1145.26000	0.08600
474.02311	1145.87000	0.08800
474.29213	1145.33000	0.08500
474.56214	1145.96000	0.08900
474.83216	1145.45000	0.08900
475.10217	1146.13000	0.09100
475.37219	1145.60000	0.08800
475.64221	1146.38000	0.08800
475.91222	1146.40000	0.08700
476.18224	1147.26000	0.08700
476.45225	1146.83000	0.08900
476.72227	1147.36000	0.08600
476.99228	1146.76000	0.08800
477.26230	1147.27000	0.09100
477.53231	1146.60000	0.09200
477.80233	1146.94000	0.09100
478.07234	1146.31000	0.09100
478.34236	1146.66000	0.08700
478.61238	1146.13000	0.09200
478.88439	1146.80000	0.09300
479.16241	1147.14000	0.09300
479.43242	1146.50000	0.08900
479.70444	1146.97000	0.09000
479.98245	1147.34000	0.09300
480.25147	1146.97000	0.09000
480.52348	1147.47000	0.09300
480.80250	1147.70000	0.09000
481.07152	1146.97000	0.08900
481.34253	1147.29000	0.09100
481.61155	1146.99000	0.08800
481.88356	1147.46000	0.09000
482.16358	1147.57000	0.08900
482.44259	1147.60000	0.09000
482.71161	1146.70000	0.09200
482.98363	1146.92000	0.09100
483.26264	1147.04000	0.09100
483.53166	1146.37000	0.09000
483.80267	1146.68000	0.08900
484.07169	1146.31000	0.09100
484.34370	1146.63000	0.09300
484.62372	1146.71000	0.09000
484.90374	1146.88000	0.09000
485.18375	1146.86000	0.09200
485.46277	1146.67000	0.09200
485.73178	1145.75000	0.08900
486.00380	1145.95000	0.09400
486.28181	1146.00000	0.09000
486.55183	1145.13000	0.09200
486.82384	1145.44000	0.09300
487.10186	1145.57000	0.09100
487.37188	1145.05000	0.08800
487.64389	1145.60000	0.09100
487.92391	1145.88000	0.09200
488.20192	1146.04000	0.09000
488.46994	1145.32000	0.09300
488.74395	1145.52000	0.09100
489.02197	1145.65000	0.09100
489.29199	1145.18000	0.09000
489.56400	1145.44000	0.09200
489.84402	1145.34000	0.09100
490.12403	1145.21000	0.09300
490.40205	1145.15000	0.09100
490.67206	1144.49000	0.09000
490.94408	1144.81000	0.08900
491.22410	1144.95000	0.09100
491.50411	1144.99000	0.09100
491.78413	1145.01000	0.09000
492.06214	1145.00000	0.09300
492.33016	1144.09000	0.09100
492.60218	1144.10000	0.09000
492.87219	1143.32000	0.09300
493.14221	1143.56000	0.08900
493.41222	1143.00000	0.09100
493.68224	1143.33000	0.09300
493.95225	1142.97000	0.09300
494.22227	1143.30000	0.09300
494.49228	1142.81000	0.09100
494.76330	1143.13000	0.09400
495.04232	1143.56000	0.09200
495.31233	1142.90000	0.08800
495.58235	1143.08000	0.09100
495.85236	1142.43000	0.08900
496.12238	1142.74000	0.08900
496.39039	1142.07000	0.09400
496.66341	1142.24000	0.09200
496.94342	1142.23000	0.09200
497.22244	1142.28000	0.09400
497.49246	1141.62000	0.09300
497.76347	1141.79000	0.09400
498.04349	1141.90000	0.09200
498.32350	1142.12000	0.09000
498.60352	1142.15000	0.08800
498.88253	1142.08000	0.09300
499.15055	1141.00000	0.09000
499.42357	1141.18000	0.09100
499.70258	1141.29000	0.09000
499.97160	1140.49000	0.09200
500.24361	1140.90000	0.09100
500.52263	1141.31000	0.09100
500.78964	1140.99000	0.09000
501.06266	1141.40000	0.09100
501.32967	1141.05000	0.09000
501.60169	1141.44000	0.09100
501.86971	1141.09000	0.09300
502.14172	1141.50000	0.09400
502.40974	1141.07000	0.09100
502.68175	1141.45000	0.09000
502.94977	1141.14000	0.09000
503.22378	1141.56000	0.09200
503.50180	1141.91000	0.09100
503.76981	1141.38000	0.09300
504.04183	1141.65000	0.09300
504.30985	1141.10000	0.08800
504.58186	1141.45000	0.09000
504.84988	1141.02000	0.09000
505.12189	1141.47000	0.09000
505.38991	1140.88000	0.09300
505.66192	1141.23000	0.08900
505.92994	1140.80000	0.09400
506.20195	1141.25000	0.08900
506.46997	1140.82000	0.09300
506.74198	1141.39000	0.09000
507.01000	1141.10000	0.09200
507.28202	1141.75000	0.09400
507.55003	1141.72000	0.09300
507.82205	1142.34000	0.08900
508.09206	1141.95000	0.08600
508.36308	1142.49000	0.09000
508.64409	1142.86000	0.09200
508.92311	1143.11000	0.08800
509.20412	1143.43000	0.09100
509.48214	1143.57000	0.09300
509.75016	1142.65000	0.09000
510.02217	1143.07000	0.09000
510.29019	1142.62000	0.09200
510.56220	1143.22000	0.09100
510.83022	1142.74000	0.09300
511.10223	1143.25000	0.09100
511.37025	1142.64000	0.09200
511.64326	1143.20000	0.09200
511.92228	1143.41000	0.09100
512.19030	1142.63000	0.09100
512.46231	1143.13000	0.09200
512.73033	1142.61000	0.09200
513.00234	1143.40000	0.09000
513.27036	1143.14000	0.08900
513.54137	1143.91000	0.09200
513.81039	1143.34000	0.08900
514.08240	1143.91000	0.08900
514.35042	1143.55000	0.09200
514.62144	1144.42000	0.09100
514.89045	1143.95000	0.09100
515.16147	1144.85000	0.09200
515.43048	1144.50000	0.08800
515.70150	1145.17000	0.09200
515.97051	1145.23000	0.09400
516.24153	1146.11000	0.08800
516.50954	1145.84000	0.08800
516.78156	1146.40000	0.08900
517.04957	1146.09000	0.09100
517.32159	1146.57000	0.09000
517.58960	1146.06000	0.08800
517.86162	1146.75000	0.08900
518.12964	1146.37000	0.09000
518.40165	1146.94000	0.08800
518.66967	1146.53000	0.08500
518.94168	1147.07000	0.08700
519.21170	1146.42000	0.08500
519.48171	1146.92000	0.08900
519.74973	1146.17000	0.09100
520.02174	1146.48000	0.08600
520.28976	1145.72000	0.08500
520.56177	1146.23000	0.08700
520.83179	1145.86000	0.08700
521.10181	1146.45000	0.08300
521.36982	1145.78000	0.08400
521.64184	1146.35000	0.09000
521.90985	1146.05000	0.08800
522.18187	1146.69000	0.08800
522.45188	1146.23000	0.08700
522.72190	1146.59000	0.08700
522.98991	1145.91000	0.08500
523.26193	1146.43000	0.08400
523.52994	1145.79000	0.08600
523.80196	1146.11000	0.09000
524.07198	1145.60000	0.08700
524.34199	1146.19000	0.08800
524.61001	1145.82000	0.08600
524.88202	1146.46000	0.08700
525.15004	1145.99000	0.08500
525.42205	1146.54000	0.09000
525.69207	1146.05000	0.08500
525.96208	1146.58000	0.08600
526.23010	1146.14000	0.08500
526.50211	1146.63000	0.08900
526.77013	1146.04000	0.08300
527.04215	1146.52000	0.08600
527.31016	1145.99000	0.08700
527.58218	1146.47000	0.08600
527.85019	1145.99000	0.08700
528.12221	1146.30000	0.08400
528.39022	1145.72000	0.08400
528.66224	1146.03000	0.08300
528.93225	1145.47000	0.08400
529.20227	1145.90000	0.08500
529.47028	1145.29000	0.08700
529.74230	1145.78000	0.08300
530.01032	1145.33000	0.08200
530.28233	1145.64000	0.08700
530.55135	1145.42000	0.08300
530.82136	1145.62000	0.08200
531.09038	1144.91000	0.08400
531.36139	1145.23000	0.08200
531.62941	1144.82000	0.08500
531.90142	1145.27000	0.07900
532.17144	1144.72000	0.08300
532.44145	1144.92000	0.08500
532.70947	1144.32000	0.08100
532.98148	1144.65000	0.08400
533.24950	1144.10000	0.08400
533.52152	1144.50000	0.07900
533.78953	1144.16000	0.08500
534.06155	1144.60000	0.08200
534.33156	1144.15000	0.08000
534.60258	1144.57000	0.08500
534.88159	1144.82000	0.08100
535.15061	1144.37000	0.08200
535.42262	1144.68000	0.08100
535.70164	1144.98000	0.07700
535.97066	1144.37000	0.08000
536.24167	1144.52000	0.08300
536.50969	1144.23000	0.08200
536.78170	1144.33000	0.07800
537.04972	1143.84000	0.08000
537.32173	1144.28000	0.08000
537.58975	1143.69000	0.07900
537.86176	1143.81000	0.07900
538.12978	1143.14000	0.08000
538.40180	1143.32000	0.07700
538.66981	1142.76000	0.08000
538.94183	1143.08000	0.07800
539.20984	1142.64000	0.07800
539.48286	1143.04000	0.07900
539.76187	1143.31000	0.07800
540.02989	1142.62000	0.07800
540.30190	1142.70000	0.08200
540.56992	1142.01000	0.07900
540.84293	1142.47000	0.07600
541.12195	1142.82000	0.07800
541.38997	1142.53000	0.07500
541.66198	1143.01000	0.07700
541.93000	1142.39000	0.08100
542.20201	1142.73000	0.07700
542.47203	1142.53000	0.07600
542.74204	1142.94000	0.07600
543.01006	1142.38000	0.07900
543.28207	1142.85000	0.07800
543.55209	1142.39000	0.07500
543.82210	1142.85000	0.07400
544.09012	1142.48000	0.07300
544.36214	1142.88000	0.07600
544.63015	1142.40000	0.07600
544.90317	1142.86000	0.07500
545.18118	1143.01000	0.07500
545.44920	1142.34000	0.07600
545.72321	1142.47000	0.07400
546.00123	1142.93000	0.07500
546.27025	1142.33000	0.07600
546.54226	1143.18000	0.07200
546.81028	1142.77000	0.07800
547.08329	1143.14000	0.07100
547.36331	1143.12000	0.07400
547.64232	1143.07000	0.07300
547.91034	1142.55000	0.07500
548.18235	1142.88000	0.07300
548.46137	1142.98000	0.07400
548.73039	1142.35000	0.07100
549.00240	1142.72000	0.07200
549.28142	1143.01000	0.07200
549.55043	1142.37000	0.07300
549.82245	1142.73000	0.07300
550.10146	1142.75000	0.07300
550.37048	1142.32000	0.07200
550.64250	1142.66000	0.07300
550.92151	1142.86000	0.07100
551.19053	1142.29000	0.07100
551.46154	1142.74000	0.07300
551.72956	1142.28000	0.07300
552.00157	1142.66000	0.07200
552.26959	1141.97000	0.07100
552.54160	1142.22000	0.06900
552.80962	1141.65000	0.06900
553.08263	1142.08000	0.07100
553.36165	1142.42000	0.07100
553.62967	1141.96000	0.06800
553.90168	1142.41000	0.06900
554.16970	1142.21000	0.07100
554.44271	1142.65000	0.07100
554.72173	1142.78000	0.06900
554.98974	1141.86000	0.07100
555.26276	1142.20000	0.07100
555.54178	1142.41000	0.06900
555.80979	1141.82000	0.06800
556.08281	1142.34000	0.07000
556.36182	1142.45000	0.07000
556.62984	1141.90000	0.07000
556.90285	1142.16000	0.06700
557.18287	1142.21000	0.06600
557.46289	1142.48000	0.06900
557.74290	1142.40000	0.06500
558.02292	1142.40000	0.06700
558.30293	1142.29000	0.06700
558.58295	1142.27000	0.06900
558.86297	1142.15000	0.06700
559.14298	1142.30000	0.06900
559.42300	1142.25000	0.06600
559.70301	1142.27000	0.06500
559.98303	1142.26000	0.06500
560.26305	1142.39000	0.06500
560.54306	1142.39000	0.06800
560.82308	1142.39000	0.06300
561.10309	1142.35000	0.06600
561.38311	1142.41000	0.06300
561.66213	1142.43000	0.06500
561.93114	1141.63000	0.06700
562.20016	1141.82000	0.06400
562.47217	1141.21000	0.06500
562.75319	1141.63000	0.06600
563.03320	1141.90000	0.06400
563.31222	1142.23000	0.06400
563.59224	1142.25000	0.06500
563.87225	1142.13000	0.06000
564.15227	1142.03000	0.06100
564.43228	1142.02000	0.06300
564.71230	1142.17000	0.06200
564.99232	1142.19000	0.06000
565.27233	1142.47000	0.05800
565.55235	1142.47000	0.05600
565.83236	1142.23000	0.06100
566.11238	1142.21000	0.06300
566.39240	1142.37000	0.05900
566.67241	1142.50000	0.06100
566.95243	1142.54000	0.06200
567.23244	1142.54000	0.06100
567.51246	1142.45000	0.05900
567.79248	1142.40000	0.05500
568.07249	1142.52000	0.06000
568.35251	1142.66000	0.06000
568.63252	1142.76000	0.05900
568.91254	1142.78000	0.05700
569.19256	1142.68000	0.06000
569.47257	1142.76000	0.05800
569.75259	1142.84000	0.05800
570.03260	1142.94000	0.05800
570.31262	1142.85000	0.05500
570.59264	1142.86000	0.05700
570.87265	1142.91000	0.05300
571.15267	1142.88000	0.05600
571.43268	1142.92000	0.05400
571.71270	1143.14000	0.05700
571.99272	1143.23000	0.05600
572.27273	1143.26000	0.05500
572.55275	1143.38000	0.05400
572.83276	1143.42000	0.05700
573.11278	1143.42000	0.05900
573.39280	1143.41000	0.05300
573.67281	1143.32000	0.05400
573.95283	1143.44000	0.05100
574.23284	1143.70000	0.05100
574.51286	1143.83000	0.05500
574.79288	1144.12000	0.05300
575.07289	1144.39000	0.05400
575.35191	1144.52000	0.05300
575.61992	1144.69000	0.05300
575.88994	1143.87000	0.05000
576.15995	1144.26000	0.05500
576.43197	1143.81000	0.05100
576.71299	1144.23000	0.05200
576.99200	1144.47000	0.05100
577.27202	1144.75000	0.04900
577.55203	1144.86000	0.05000
577.83205	1144.88000	0.04900
578.11207	1144.97000	0.04800
578.39208	1145.24000	0.04900
578.67210	1145.24000	0.04800
578.95211	1145.21000	0.04900
579.23213	1145.59000	0.05000
579.51215	1145.58000	0.04900
579.79216	1145.84000	0.04800
580.07218	1145.92000	0.04900
580.35219	1146.18000	0.04800
580.63221	1146.42000	0.04400
580.91223	1146.53000	0.04800
581.19224	1146.78000	0.04800
581.47226	1146.86000	0.04800
581.75227	1147.00000	0.04900
582.03229	1147.05000	0.04700
582.31231	1147.00000	0.04500
582.59232	1147.01000	0.04800
582.87234	1147.05000	0.04800
583.15235	1147.28000	0.04700
583.43237	1147.49000	0.04500
583.71239	1147.73000	0.04700
583.99240	1148.09000	0.04300
584.27242	1148.21000	0.04700
584.55243	1148.40000	0.04600
584.83245	1148.30000	0.04800
585.11247	1148.21000	0.04700
585.39248	1148.27000	0.04600
585.67250	1148.34000	0.04400
585.95251	1148.06000	0.04100
586.23253	1148.04000	0.04500
586.51255	1148.16000	0.04000
586.79256	1148.20000	0.04500
587.07258	1148.20000	0.04500
587.35160	1148.20000	0.04100
587.62061	1148.20000	0.04200
587.89063	1147.36000	0.04000
588.16064	1147.67000	0.04200
588.43066	1146.85000	0.03800
588.70067	1147.23000	0.04200
588.96969	1146.93000	0.04100
589.24070	1147.32000	0.03900
589.50972	1146.88000	0.04100
589.78073	1147.24000	0.04200
590.05275	1146.73000	0.03900
590.33177	1147.11000	0.04300
590.61178	1147.42000	0.03800
590.89180	1147.61000	0.04000
591.17181	1147.44000	0.03800
591.45183	1147.62000	0.03900
591.73185	1147.35000	0.04000
592.01186	1147.11000	0.03500
592.29188	1146.90000	0.03900
592.57189	1147.69000	0.03700
592.85191	1147.14000	0.03800
593.13193	1146.95000	0.03400
593.41194	1146.68000	0.03900
593.69196	1146.54000	0.03900
593.97197	1146.49000	0.03700
594.25199	1146.64000	0.03600
594.53201	1146.60000	0.03500
594.81202	1146.59000	0.03300
595.09204	1146.40000	0.03500
595.37205	1146.21000	0.03700
595.65207	1145.95000	0.03400
595.93209	1145.76000	0.03500
596.21210	1145.66000	0.03500
596.49212	1145.46000	0.03400
596.77213	1145.05000	0.03500
597.05215	1144.72000	0.03400
597.33217	1144.40000	0.03400
597.61118	1144.00000	0.03200
597.88020	1143.96000	0.03200
598.15221	1143.42000	0.03300
598.43223	1143.69000	0.03200
598.71224	1143.77000	0.03100
598.99226	1143.72000	0.03200
599.27228	1143.77000	0.03100
599.55229	1143.82000	0.02900
599.83231	1143.86000	0.03100
600.11232	1143.56000	0.03100
600.39234	1143.49000	0.03000
